"","rt","stimulus","key_press","trial_type","trial_index","time_elapsed","internal_node_id","cond","test_part","correct_response","correct","summary.rt_real","summary.ant_resp_pct","summary.fa_pct","summary.miss_pct","summary.mistakes","summary.ACC"
"1",1159.2,"<p><div style='font-size:40px;''><strong>Reaktionstid </strong></div></p><p class='gap-above'> Her skal du gennemføre tre forskellige tests af din reaktionstid. </p><p class='gap-above'><strong><i>Tryk på en tast for at læse instruktionen til den første.</strong></i></p>", 32,"html-keyboard-response", 0, 1161,"0.0-0.0",NA,NA,NA,NA,NA,NA,NA,NA,NA,NA
"2", 595.5,"<p><div style='font-size:25px;''><strong>Auditiv reaktionstid </strong></div></p><p class='gap-above'</p<p>I den følgende opgave skal du lytte godt efter.</p><p>  Hver gang du hører en <strong>bip-lyd</strong>, skal du trykke på <strong>mellemrumstasten,</strong> så hurtigt som du kan.</p><p class='largegap-above'</p<p><div style='font-size:80px;''>+</div></p><p class='largegap-above'</p<p> Du får lov til at prøve det nogle gange først.</p><p class='gap-above'> <strong><i>Kig på krydset i midten og tryk på mellemrumstasten for at starte træningsrunden.</strong></i></p>", 32,"html-keyboard-response", 1, 1759,"0.0-1.0","aud_s","instructions",NA,NA,NA,NA,NA,NA,NA,NA
"3",NA,"<div style=""font-size:80px;"">+</div>",NA,"html-keyboard-response", 2, 3463,"0.0-2.0-0.0","aud_s","training_fixation","null",TRUE,NA,NA,NA,NA,NA,NA
"4", 280.0,"sounds/452sine.mp3", 32,"audio-keyboard-response", 3, 3746,"0.0-2.0-1.0","aud_s","training_test","space",TRUE,NA,NA,NA,NA,NA,NA
"5",NA," ",NA,"html-keyboard-response", 4, 3799,"0.0-2.0-2.0",NA,NA,NA,NA,NA,NA,NA,NA,NA,NA
"6",NA,"<div style=""font-size:80px;"">+</div>",NA,"html-keyboard-response", 5, 6253,"0.0-2.0-0.1","aud_s","training_fixation","null",TRUE,NA,NA,NA,NA,NA,NA
"7", 331.0,"sounds/452sine.mp3", 32,"audio-keyboard-response", 6, 6586,"0.0-2.0-1.1","aud_s","training_test","space",TRUE,NA,NA,NA,NA,NA,NA
"8",NA," ",NA,"html-keyboard-response", 7, 6639,"0.0-2.0-2.1",NA,NA,NA,NA,NA,NA,NA,NA,NA,NA
"9", 504.1,"<p>Din gennemsnitlige reaktionstid her i træningsrunden var </p><p><strong> 306ms </strong></p><p>Du trykkede for tidligt 0 % af gangene. </p><p class='gap-above'><strong><i>Tryk på mellemrumstasten for at fortsætte.</strong></i></p>", 32,"html-keyboard-response", 8, 7144,"0.0-3.0","aud_s","feedback_training",NA,NA,306,  0,  0,  0,NA,NA
"10", 703.3,"<p><strong>Nu kommer den rigtige test af din auditive reaktionstid</strong>.</p> <p> Når du hører lyden, skal du trykke så hurtigt som du kan. </p><p class='largegap-above'</p<p><div style='font-size:80px;''>+</div></p><p class='largegap-above'</p<p>Er du klar? Opgaven handler om fart!</p><p class='gap-above'><strong><i>Tryk på mellemrumstasten for at starte.</strong></i></p>", 32,"html-keyboard-response", 9, 7851,"0.0-4.0","aud_s","instructions",NA,NA,NA,NA,NA,NA,NA,NA
"11",NA,"<div style=""font-size:80px;"">+</div>",NA,"html-keyboard-response",10, 9056,"0.0-5.0-0.0","aud_s","fixation","null",TRUE,NA,NA,NA,NA,NA,NA
"12", 320.0,"sounds/452sine.mp3", 32,"audio-keyboard-response",11, 9370,"0.0-5.0-1.0","aud_s","test","space",TRUE,NA,NA,NA,NA,NA,NA
"13",NA," ",NA,"html-keyboard-response",12, 9422,"0.0-5.0-2.0",NA,NA,NA,NA,NA,NA,NA,NA,NA,NA
"14",NA,"<div style=""font-size:80px;"">+</div>",NA,"html-keyboard-response",13,10623,"0.0-5.0-0.1","aud_s","fixation","null",TRUE,NA,NA,NA,NA,NA,NA
"15", 259.0,"sounds/452sine.mp3", 32,"audio-keyboard-response",14,10888,"0.0-5.0-1.1","aud_s","test","space",TRUE,NA,NA,NA,NA,NA,NA
"16",NA," ",NA,"html-keyboard-response",15,10940,"0.0-5.0-2.1",NA,NA,NA,NA,NA,NA,NA,NA,NA,NA
"17", 402.6,"<p>Din gennemsnitlige reaktionstid var </p><p><strong> 290 ms </strong></p><p>Du trykkede for tidligt 0 % af gangene. </p><p class='gap-above'><strong><i>Tryk på mellemrumstasten for at afslutte den auditive reaktionstids-test.</strong></i></p>", 32,"html-keyboard-response",16,11345,"0.0-6.0","aud_s","feedback_real",NA,NA,290,  0,  0,  0,NA,NA
"18", 340.0,"<p><div style='font-size:25px;''><strong>Visuel simpel reaktionstid </strong></div></p><pclass='largegap-above'>I den følgende opgave vil du se en hvid kasse på skærmen.</p><img src='img/blankbox.png'></img><p class='small'><strong>Vent!</strong></p><p class='gap-above'>Hver gang du ser et <strong>kryds</strong> i kassen,</p><p>skal du trykke på <strong>mellemrumstasten,</strong> så hurtigt som du kan.</p><img src='img/cross.png'></img><p class='small'><strong>Tryk!</strong></p><p> Du får lov til at prøve det nogle gange først.</p><p class='gap-above'> <strong><i>Tryk på mellemrumstasten for at starte træningsrunden.</strong></i></p>", 32,"html-keyboard-response",17,11689,"0.0-7.0","vis_s","instructions",NA,NA,NA,NA,NA,NA,NA,NA
"19",NA,"img/blankbox.png",NA,"image-keyboard-response",18,14192,"0.0-8.0-0.0","vis_s","training_fixation","null",TRUE,NA,NA,NA,NA,NA,NA
"20", 316.3,"img/cross.png", 32,"image-keyboard-response",19,14512,"0.0-8.0-2.0","vis_s","training_test","space",TRUE,NA,NA,NA,NA,NA,NA
"21",NA,"img/blankbox.png",NA,"image-keyboard-response",20,17014,"0.0-8.0-0.1","vis_s","training_fixation","null",TRUE,NA,NA,NA,NA,NA,NA
"22", 272.4,"img/cross.png", 32,"image-keyboard-response",21,17289,"0.0-8.0-2.1","vis_s","training_test","space",TRUE,NA,NA,NA,NA,NA,NA
"23", 380.1,"<p>Din gennemsnitlige reaktionstid her i træningsrunden var </p><p><strong> 294ms </strong></p><p>Du trykkede for tidligt 0 % af gangene. </p><p class='gap-above'><strong><i>Tryk på mellemrumstasten for at fortsætte.</strong></i></p>", 32,"html-keyboard-response",22,17671,"0.0-9.0","vis_s","feedback_training",NA,NA,294,  0,  0,  0,NA,NA
"24", 328.0,"<p><strong>Nu kommer den rigtige test af din reaktionstid</strong>.</p> <p>Når du ser krydset, skal du trykke så hurtigt som du kan. </p><div class='largegap-above'></div><img src='img/cross.png'></img><p class='largegap-above'>Er du klar? Opgaven handler om fart!</p><p class='smallgap-above'><strong><i>Tryk på mellemrumstasten for at starte.</strong></i></p>", 32,"html-keyboard-response",23,18002,"0.0-10.0","vis_s","instructions",NA,NA,NA,NA,NA,NA,NA,NA
"25",NA,"img/blankbox.png",NA,"image-keyboard-response",24,20506,"0.0-11.0-0.0","vis_s","fixation","null",TRUE,NA,NA,NA,NA,NA,NA
"26", 435.2,"img/cross.png", 32,"image-keyboard-response",25,20944,"0.0-11.0-1.0","vis_s","test","space",TRUE,NA,NA,NA,NA,NA,NA
"27",NA,"img/blankbox.png",NA,"image-keyboard-response",26,22197,"0.0-11.0-0.1","vis_s","fixation","null",TRUE,NA,NA,NA,NA,NA,NA
"28", 265.0,"img/cross.png", 32,"image-keyboard-response",27,22464,"0.0-11.0-1.1","vis_s","test","space",TRUE,NA,NA,NA,NA,NA,NA
"29", 301.9,"<p>Din gennemsnitlige reaktionstid var </p><p><strong> 350 ms </strong></p><p>Du trykkede for tidligt 0 % af gangene. </p><p class='gap-above'><strong><i>Tryk på mellemrumstasten for at afslutte den visuelle reaktionstids-test.</strong></i></p>", 32,"html-keyboard-response",28,22769,"0.0-12.0","vis_s","feedback_real",NA,NA,350,  0,  0,  0,NA,NA
"30", 701.1,"<p><div style='font-size:25px;'><strong>Visuel kompleks reaktionstids-test </strong></div></p><p class='gap-above'>I den følgende opgave skal du bruge fire fingre. </p><p>Placer dem nu som vist på billedet her. </p><p> <img src='img/choicetask.png'></img><p class='gap-above'> <strong><i>Tryk på mellemrumstasten for at læse instruktionen.</strong></i></p>", 32,"html-keyboard-response",29,23473,"0.0-13.0","vis_ch","instructions",NA,NA,NA,NA,NA,NA,NA,NA
"31",1965.2,"<p>Du vil se fire hvide kasser på skærmen.</p><p class='gap-above'><img src='img/cRT_fix.png'></img><p class='smallgap-above'class='small'><strong>Vent!</strong></p><p class='gap-above'>Hver gang du ser et kryds i én af kasserne, skal du trykke på den </p><p>tilhørende tastatur-tast så hurtigt som du kan:</p><img src='img/reminder.png'></img><p class='gap-above'> Du får lov til at prøve det nogle gange først.</p><p class='smallgap-above'> <strong><i>Tryk på mellemrumstasten for at starte træningsrunden.</strong></i></p>", 32,"html-keyboard-response",30,25440,"0.0-14.0","vis_ch","instructions",NA,NA,NA,NA,NA,NA,NA,NA
"32",NA,"img/cRT_fix.png",NA,"image-keyboard-response",31,26692,"0.0-15.0-0.0","vis_ch","training_fixation","null",TRUE,NA,NA,NA,NA,NA,NA
"33", 427.2,"img/cRT1.png", 90,"image-keyboard-response",32,27121,"0.0-15.0-1.0","vis_ch","training_test","z",TRUE,NA,NA,NA,NA,NA,NA
"34",NA,"img/cRT_fix.png",NA,"image-keyboard-response",33,29374,"0.0-15.0-0.1","vis_ch","training_fixation","null",TRUE,NA,NA,NA,NA,NA,NA
"35", 408.7,"img/cRT4.png",190,"image-keyboard-response",34,29784,"0.0-15.0-1.1","vis_ch","training_test",".",TRUE,NA,NA,NA,NA,NA,NA
"36",NA,"img/cRT_fix.png",NA,"image-keyboard-response",35,31536,"0.0-15.0-0.2","vis_ch","training_fixation","null",TRUE,NA,NA,NA,NA,NA,NA
"37", 278.0,"img/cRT2.png", 88,"image-keyboard-response",36,31816,"0.0-15.0-1.2","vis_ch","training_test","x",TRUE,NA,NA,NA,NA,NA,NA
"38",NA,"img/cRT_fix.png",NA,"image-keyboard-response",37,33067,"0.0-15.0-0.3","vis_ch","training_fixation","null",TRUE,NA,NA,NA,NA,NA,NA
"39", 298.4,"img/cRT3.png",188,"image-keyboard-response",38,33367,"0.0-15.0-1.3","vis_ch","training_test",",",TRUE,NA,NA,NA,NA,NA,NA
"40", 550.7,"<p>Du svarede rigtigt 50 % af gangene, </p><p>og din gennemsnitlige reaktionstid her i træningsrunden var </p><p class='gap-above'><strong> 353 ms </strong></p><p class='largegap-above'><strong><i>Tryk på mellemrumstasten for at fortsætte.</strong></i></p>", 32,"html-keyboard-response",39,33920,"0.0-16.0","vis_ch","feedback_training",NA,NA,353,  0,  0,NA,  0,100
"41", 527.4,"<p><strong>Nu kommer den rigtige test af din reaktionstid</strong>.</p> <p>Når du ser krydset, skal du trykke på den tilhørende tast så hurtigt som du kan. </p><p>Du får ikke at vide, om du laver fejl. </p><p class='gap-above'> Husk: </p><img src='img/reminder.png'></img><p class='largegap-above'>Er du klar? Opgaven handler om fart!</p><p class='smallgap-above'><strong><i>Tryk på mellemrumstasten for at starte.</strong></i></p>", 32,"html-keyboard-response",40,34450,"0.0-17.0","vis_ch","instructions",NA,NA,NA,NA,NA,NA,NA,NA
"42",NA,"img/cRT_fix.png",NA,"image-keyboard-response",41,36953,"0.0-18.0-0.0","vis_ch","fixation","null",TRUE,NA,NA,NA,NA,NA,NA
"43", 358.2,"img/cRT3.png",190,"image-keyboard-response",42,37314,"0.0-18.0-1.0","vis_ch","test",",",FALSE,NA,NA,NA,NA,NA,NA
"44",  73.3,"img/cRT_fix.png",188,"image-keyboard-response",43,39317,"0.0-18.0-0.1","vis_ch","fixation","null",FALSE,NA,NA,NA,NA,NA,NA
"45", 334.8,"img/cRT4.png",190,"image-keyboard-response",44,39654,"0.0-18.0-1.1","vis_ch","test",".",TRUE,NA,NA,NA,NA,NA,NA
"46",NA,"img/cRT_fix.png",NA,"image-keyboard-response",45,41406,"0.0-18.0-0.2","vis_ch","fixation","null",TRUE,NA,NA,NA,NA,NA,NA
"47", 296.5,"img/cRT2.png", 88,"image-keyboard-response",46,41704,"0.0-18.0-1.2","vis_ch","test","x",TRUE,NA,NA,NA,NA,NA,NA
"48",NA,"img/cRT_fix.png",NA,"image-keyboard-response",47,44207,"0.0-18.0-0.3","vis_ch","fixation","null",TRUE,NA,NA,NA,NA,NA,NA
"49", 320.8,"img/cRT1.png", 90,"image-keyboard-response",48,44531,"0.0-18.0-1.3","vis_ch","test","z",TRUE,NA,NA,NA,NA,NA,NA
"50", 409.6,"<p>Du svarede rigtigt 75 % af gangene, </p><p>og din gennemsnitlige reaktionstid var </p><p class='gap-above'><strong> 317 ms </strong></p><p class='gap-above'><strong><i>Tryk på mellemrumstasten for at afslutte denne reaktionstids-test.</strong></i></p>", 32,"html-keyboard-response",49,44944,"0.0-19.0","vis_ch","feedback_real",NA,NA,317,  0, 25,NA,  1, 75
